Folder: masterpraktikum/RReflektrometrie/Daten

Note: README.md
Nun, da wir erwachsen sind, wollen wir auch so arbeiten.
Jeder Versuch bekomme dafür einen eigenen Ordner, in dem sich die Unterteilung in "Literatur" und "Protokoll" befinde.

File: messung2_1349.uxd
; (content of file C:\Users\Bruker\Desktop\Praktikum\LindhauerRauter\messung2_1349.raw)
_FILEVERSION = 2
_SAMPLE =
_+SAMPLE =
_SITE = Dortmund
_USER = "Metin Tolan"
_GONIOMETER_CODE = 21
_STAGE_CODE = 8
; Goniometer : D8 theta/theta, stage : XYZ Drive(s)
_SAMPLE_CHANGER_CODE = 0
_ATTACHMENTS_CODE = 0
_GONIOMETER_RADIUS = 300
_FIXED_DIVSLIT = 0.15
_FIXED_SAMPLESLIT = 1
_SOLLER_SLITS = 2
_FIXED_DETSLIT = 1
_MONOCHROMATOR = 0
; Incident beam monochromator : None
_THIN_FILM = N
_BETA_FILTER = N
_FIXED_ANTISLIT = 0.15
_ANALYZER_CODE = 0
; Received beam analyzer : None
_DATEMEASURED = "16-Feb-2017 13:07:21"
_WL_UNIT = A
_WL1 = 1.5406
_WL2 = 1.54439
_WL3 = 1.39222
_WLRATIO = 0.5
_ANODE = Cu

; Data for range 1
_DRIVE = THETA
_STEPTIME = 4.994
_STEPSIZE = 0.005
_STEPMODE = C
_START = 0
_THETA = 0
_2THETA = 0.15
_KHI = 0
_PHI = 0
_X = 29
_Y = -5
_Z = -19.1225
_DETECTOR = 1
; Detector type : Scintillation counter
_HV = 743.4
_GAIN = 80
_LLD = 0.98
_ULD = 2.01
_DETECTORSLIT = out
_AUX1 = 0
_AUX2 = 0
_AUX3 = 0
_TIMESTARTED = 1
_TEMP_RATE = -1
_TEMP_DELAY = -1
_KV = 40
_MA = 40
_RANGE_WL = 1.5406
_3DPLANE = 0
_V4_COUNTERS_MASK = 1
_V4_DRIVES_MASK = 0
_V4_ENCODERS_MASK = 0
_2THETACOUNTS = 1
; THETA  Cnt1_D1
   0.0000     323749
   0.0100     274388
   0.0200     301068
   0.0300     329980
   0.0400     314810
   0.0500     280227
   0.0600     222381
   0.0700     157278
   0.0800     118908
   0.0900      94862
   0.1000      75196
   0.1100      59666
   0.1200      46898
   0.1300      38974
   0.1400      33562
   0.1500      30672
   0.1600      28128
   0.1700      23396
   0.1800      19008
   0.1900      17307
   0.2000      15438
   0.2100      11827
   0.2200       9236
   0.2300       6104
   0.2400       3445
   0.2500       2820
   0.2600       2560
   0.2700       2106
   0.2800       1581
   0.2900       1346
   0.3000       1268
   0.3100       1173
   0.3200        935
   0.3300        842
   0.3400        817
   0.3500        732
   0.3600        683
   0.3700        565
   0.3800        534
   0.3900        498
   0.4000        466
   0.4100        441
   0.4200        401
   0.4300        350
   0.4400        360
   0.4500        333
   0.4600        276
   0.4700        292
   0.4800        238
   0.4900        232
   0.5000        210
   0.5100        220
   0.5200        207
   0.5300        182
   0.5400        180
   0.5500        139
   0.5600        172
   0.5700        134
   0.5800        143
   0.5900        106
   0.6000        137
   0.6100        109
   0.6200        119
   0.6300         96
   0.6400        106
   0.6500         81
   0.6600         94
   0.6700         91
   0.6800         93
   0.6900         88
   0.7000         94
   0.7100        107
   0.7200         78
   0.7300         65
   0.7400         61
   0.7500         65
   0.7600         63
   0.7700         50
   0.7800         61
   0.7900         60
   0.8000         62
   0.8100         29
   0.8200         50
   0.8300         42
   0.8400         52
   0.8500         41
   0.8600         51
   0.8700         35
   0.8800         46
   0.8900         44
   0.9000         35
   0.9100         56
   0.9200         27
   0.9300         41
   0.9400         47
   0.9500         33
   0.9600         28
   0.9700         46
   0.9800         30
   0.9900         36
   1.0000         32
   1.0100         32
   1.0200         33
   1.0300         32
   1.0400         38
   1.0500         33
   1.0600         39
   1.0700         32
   1.0800         15
   1.0900         25
   1.1000         22
   1.1100         16
   1.1200         28
   1.1300         22
   1.1400         23
   1.1500         31
   1.1600         19
   1.1700         11
   1.1800         19
   1.1900         16
   1.2000         24
   1.2100         19
   1.2200         24
   1.2300         24
   1.2400         17
   1.2500         24
   1.2600         18
   1.2700         25
   1.2800         21
   1.2900         23
   1.3000         16
   1.3100         22
   1.3200         23
   1.3300         16
   1.3400         11
   1.3500         21
   1.3600         15
   1.3700         15
   1.3800         30
   1.3900         19
   1.4000         17
   1.4100         15
   1.4200          8
   1.4300         16
   1.4400         22
   1.4500         18
   1.4600         13
   1.4700         10
   1.4800         16
   1.4900         10
   1.5000         14
   1.5100         10
   1.5200         16
   1.5300         16
   1.5400         13
   1.5500         16
   1.5600         17
   1.5700         13
   1.5800         17
   1.5900         14
   1.6000         12
   1.6100         16
   1.6200         12
   1.6300          7
   1.6400         13
   1.6500          5
   1.6600         14
   1.6700         13
   1.6800         15
   1.6900         17
   1.7000         10
   1.7100          9
   1.7200         10
   1.7300         17
   1.7400         16
   1.7500         17
   1.7600         11
   1.7700         12
   1.7800         12
   1.7900          8
   1.8000         10
   1.8100         13
   1.8200         12
   1.8300          9
   1.8400         13
   1.8500         12
   1.8600         12
   1.8700          8
   1.8800         12
   1.8900         13
   1.9000         12
   1.9100         12
   1.9200          7
   1.9300         16
   1.9400          8
   1.9500         17
   1.9600         13
   1.9700          8
   1.9800          9
   1.9900         12
   2.0000          9
   2.0100         16
   2.0200         15
   2.0300         13
   2.0400         18
   2.0500          5
   2.0600         15
   2.0700          8
   2.0800         12
   2.0900         19
   2.1000          5
   2.1100         10
   2.1200          9
   2.1300         11
   2.1400         11
   2.1500         12
   2.1600         10
   2.1700         11
   2.1800          5
   2.1900         16
   2.2000         15
   2.2100         11
   2.2200          9
   2.2300          8
   2.2400         13
   2.2500         10
   2.2600         11
   2.2700          7
   2.2800          4
   2.2900         13
   2.3000         10
   2.3100         11
   2.3200          7
   2.3300         15
   2.3400         10
   2.3500         12
   2.3600         11
   2.3700         10
   2.3800         13
   2.3900         10
   2.4000          7
   2.4100         14
   2.4200          8
   2.4300         11
   2.4400          5
   2.4500          9
   2.4600          7
   2.4700         11
   2.4800          8
   2.4900          8
   2.5000          5