Folder: masterpraktikum/RReflektometrie/Daten

Note: RReflektometrie/Daten/messung_bereinigt.txt
0.0	70526451.0
0.005	82528206.0
0.01	83418316.0
0.015	68674239.0
0.02	53361632.0
0.025	38367822.0
0.03	26915420.0
0.035	19737597.0
0.04	16596590.0
0.045	16702746.0
0.05	18023473.0
0.055	19139835.0
0.06	21009819.0
0.065	21740697.0
0.07	23451422.0
0.075	23712828.0
0.08	26334392.0
0.085	27583234.0
0.09	28998938.0
0.095	31372504.0
0.1	31467104.0
0.105	33323682.0
0.11	34603234.0
0.115	36566162.0
0.12	38300802.0
0.125	39168966.0
0.13	40913226.0
0.135	43508938.0
0.14	42863038.0
0.145	43944918.0
0.15	44906328.0
0.155	41966460.0
0.16	43204472.0
0.165	44959108.0
0.17	47086004.0
0.175	46776109.0
0.18	48722692.0
0.185	49659939.0
0.19	52073093.0
0.195	52721705.0
0.2	50958762.0
0.205	48800065.0
0.21	45573273.0
0.215	42994042.0
0.22	35073764.0
0.225	28318080.0
0.23	18753696.0
0.235	10725718.0
0.24	6429845.0
0.245	4144902.0
0.25	4100400.0
0.255	4600384.0
0.26	4978300.0
0.265	4692198.0
0.27	3887724.0
0.275	2818704.0
0.28	1767459.0
0.285	1115911.0
0.29	962959.0
0.295	1163617.0
0.3	1550662.0
0.305	1843506.0
0.31	1833677.0
0.315	1645544.0
0.32	1251765.0
0.325	845250.0
0.33	528425.0
0.335	373662.0
0.34	430764.0
0.345	586670.0
0.35	759835.0
0.355	866415.0
0.36	851646.0
0.365	728849.0
0.37	545967.0
0.375	358655.0
0.38	232627.0
0.385	192958.0
0.39	229606.0
0.395	317492.0
0.4	408307.0
0.405	458972.0
0.41	456942.0
0.415	388236.0
0.42	300318.0
0.425	200795.0
0.43	131464.0
0.435	108583.0
0.44	125583.0
0.445	173648.0
0.45	228184.0
0.455	261015.0
0.46	262771.0
0.465	235638.0
0.47	185243.0
0.475	130094.0
0.48	86425.0
0.485	67592.0
0.49	73091.0
0.495	97967.0
0.5	127637.0
0.505	152676.0
0.51	162030.0
0.515	151254.0
0.52	126603.0
0.525	92773.0
0.53	64583.0
0.535	43334.0
0.54	42582.0
0.545	53637.0
0.55	72257.0
0.555	89200.0
0.56	99176.0
0.565	97633.0
0.57	85549.0
0.575	66423.0
0.58	46541.0
0.585	32893.0
0.59	27550.0
0.595	31980.0
0.6	42184.0
0.605	54070.0
0.61	63712.0
0.615	66172.0
0.62	60950.0
0.625	50308.0
0.63	37324.0
0.635	26017.0
0.64	20048.0
0.645	19720.0
0.65	25252.0
0.655	33247.0
0.66	40888.0
0.665	45202.0
0.67	44037.0
0.675	38707.0
0.68	30698.0
0.685	21986.0
0.69	15915.0
0.695	13628.0
0.7	15728.0
0.705	20375.0
0.71	25960.0
0.715	30339.0
0.72	31885.0
0.725	30021.0
0.73	25102.0
0.735	18802.0
0.74	13563.0
0.745	10466.0
0.75	9989.0
0.755	12387.0
0.76	16197.0
0.765	20091.0
0.77	22542.0
0.775	22205.0
0.78	20041.0
0.785	16261.0
0.79	11904.0
0.795	8875.0
0.8	7284.0
0.805	7996.0
0.81	10279.0
0.815	12783.0
0.82	15520.0
0.825	16582.0
0.83	16035.0
0.835	13882.0
0.84	10874.0
0.845	8100.0
0.85	5954.0
0.855	5559.0
0.86	6380.0
0.865	8157.0
0.87	10343.0
0.875	11880.0
0.88	12408.0
0.885	11380.0
0.89	9572.0
0.895	7394.0
0.9	5536.0
0.905	4321.0
0.91	4178.0
0.915	5217.0
0.92	6893.0
0.925	8095.0
0.93	9101.0
0.935	8977.0
0.94	8125.0
0.945	6803.0
0.95	5161.0
0.955	3814.0
0.96	3215.0
0.965	3539.0
0.97	4266.0
0.975	5390.0
0.98	6352.0
0.985	6934.0
0.99	6727.0
0.995	5924.0
1.0	4857.0
1.005	3610.0
1.01	2782.0
1.015	2429.0
1.02	2726.0
1.025	3499.0
1.03	4398.0
1.035	5008.0
1.04	5182.0
1.045	5160.0
1.05

Note: README.md
Nun, da wir erwachsen sind, wollen wir auch so arbeiten.
Jeder Versuch bekomme dafür einen eigenen Ordner, in dem sich die Unterteilung in "Literatur" und "Protokoll" befinde.

File: messung1_1306.uxd
; (content of file C:\Users\Bruker\Desktop\Praktikum\LindhauerRauter\messung1_1306.raw)
_FILEVERSION = 2
_SAMPLE =
_+SAMPLE =
_SITE = Dortmund
_USER = "Metin Tolan"
_GONIOMETER_CODE = 21
_STAGE_CODE = 8
; Goniometer : D8 theta/theta, stage : XYZ Drive(s)
_SAMPLE_CHANGER_CODE = 0
_ATTACHMENTS_CODE = 0
_GONIOMETER_RADIUS = 300
_FIXED_DIVSLIT = 0.15
_FIXED_SAMPLESLIT = 1
_SOLLER_SLITS = 2
_FIXED_DETSLIT = 1
_MONOCHROMATOR = 0
; Incident beam monochromator : None
_THIN_FILM = N
_BETA_FILTER = N
_FIXED_ANTISLIT = 0.15
_ANALYZER_CODE = 0
; Received beam analyzer : None
_DATEMEASURED = "16-Feb-2017 12:17:12"
_WL_UNIT = A
_WL1 = 1.5406
_WL2 = 1.54439
_WL3 = 1.39222
_WLRATIO = 0.5
_ANODE = Cu

; Data for range 1
_DRIVE = THETA
_STEPTIME = 4.994
_STEPSIZE = 0.005
_STEPMODE = C
_START = 0
_THETA = 0
_2THETA = 0
_KHI = 0
_PHI = 0
_X = 29
_Y = -5
_Z = -19.1225
_DETECTOR = 1
; Detector type : Scintillation counter
_HV = 743.4
_GAIN = 80
_LLD = 0.98
_ULD = 2.01
_DETECTORSLIT = out
_AUX1 = 0
_AUX2 = 0
_AUX3 = 0
_TIMESTARTED = 1
_TEMP_RATE = -1
_TEMP_DELAY = -1
_KV = 40
_MA = 40
_RANGE_WL = 1.5406
_3DPLANE = 0
_V4_COUNTERS_MASK = 1
_V4_DRIVES_MASK = 0
_V4_ENCODERS_MASK = 0
_2THETACOUNTS = 1
; THETA  Cnt1_D1
   0.0000   70850200
   0.0100   83692704
   0.0200   53662700
   0.0300   27245400
   0.0400   16911400
   0.0500   18303700
   0.0600   21232200
   0.0700   23608700
   0.0800   26453300
   0.0900   29093800
   0.1000   31542300
   0.1100   34662900
   0.1200   38347700
   0.1300   40952200
   0.1400   42896600
   0.1500   44937000
   0.1600   43232600
   0.1700   47109400
   0.1800   48741700
   0.1900   52090400
   0.2000   50974200
   0.2100   45585100
   0.2200   35083000
   0.2300   18759800
   0.2400    6433290
   0.2500    4103220
   0.2600    4980860
   0.2700    3889830
   0.2800    1769040
   0.2900     964305
   0.3000    1551930
   0.3100    1834850
   0.3200    1252700
   0.3300     529267
   0.3400     431581
   0.3500     760567
   0.3600     852329
   0.3700     546532
   0.3800     233161
   0.3900     230104
   0.4000     408773
   0.4100     457383
   0.4200     300719
   0.4300     131814
   0.4400     125943
   0.4500     228517
   0.4600     263047
   0.4700     185535
   0.4800      86663
   0.4900      73323
   0.5000     127847
   0.5100     162250
   0.5200     126810
   0.5300      64765
   0.5400      42762
   0.5500      72396
   0.5600      99348
   0.5700      85683
   0.5800      46684
   0.5900      27656
   0.6000      42321
   0.6100      63821
   0.6200      61069
   0.6300      37420
   0.6400      20154
   0.6500      25333
   0.6600      40982
   0.6700      44128
   0.6800      30791
   0.6900      16003
   0.7000      15822
   0.7100      26067
   0.7200      31963
   0.7300      25167
   0.7400      13624
   0.7500      10054
   0.7600      16260
   0.7700      22592
   0.7800      20102
   0.7900      11964
   0.8000       7346
   0.8100      10308
   0.8200      15570
   0.8300      16077
   0.8400      10926
   0.8500       5995
   0.8600       6431
   0.8700      10378
   0.8800      12454
   0.8900       9616
   0.9000       5571
   0.9100       4234
   0.9200       6920
   0.9300       9142
   0.9400       8172
   0.9500       5194
   0.9600       3243
   0.9700       4312
   0.9800       6382
   0.9900       6763
   1.0000       4889
   1.0100       2814
   1.0200       2759
   1.0300       4430
   1.0400       5220
   1.0500       4296
   1.0600       2625
   1.0700       2108
   1.0800       2905
   1.0900       3968
   1.1000       3719
   1.1100       2464
   1.1200       1551
   1.1300       1985
   1.1400       2891
   1.1500       3248
   1.1600       2363
   1.1700       1408
   1.1800       1282
   1.1900       2034
   1.2000       2492
   1.2100       2197
   1.2200       1350
   1.2300       1021
   1.2400       1355
   1.2500       1917
   1.2600       1974
   1.2700       1249
   1.2800        850
   1.2900        923
   1.3000       1401
   1.3100       1613
   1.3200       1271
   1.3300        765
   1.3400        688
   1.3500        942
   1.3600       1276
   1.3700       1161
   1.3800        772
   1.3900        549
   1.4000        679
   1.4100        943
   1.4200        967
   1.4300        734
   1.4400        523
   1.4500        502
   1.4600        698
   1.4700        838
   1.4800        691
   1.4900        435
   1.5000        380
   1.5100        494
   1.5200        648
   1.5300        626
   1.5400        450
   1.5500        308
   1.5600        335
   1.5700        507
   1.5800        557
   1.5900        436
   1.6000        302
   1.6100        265
   1.6200        320
   1.6300        445
   1.6400        418
   1.6500        282
   1.6600        204
   1.6700        269
   1.6800        350
   1.6900        335
   1.7000        257
   1.7100        192
   1.7200        189
   1.7300        278
   1.7400        282
   1.7500        249
   1.7600        164
   1.7700        147
   1.7800        178
   1.7900        234
   1.8000        223
   1.8100        178
   1.8200        143
   1.8300        135
   1.8400        199
   1.8500        218
   1.8600        150
   1.8700        107
   1.8800        122
   1.8900        130
   1.9000        177
   1.9100        141
   1.9200        103
   1.9300        105
   1.9400         93
   1.9500        137
   1.9600        125
   1.9700         89
   1.9800         97
   1.9900         91
   2.0000        120
   2.0100        129
   2.0200        110
   2.0300         88
   2.0400         85
   2.0500        102
   2.0600        108
   2.0700         75
   2.0800         84
   2.0900         64
   2.1000         80
   2.1100         83
   2.1200         76
   2.1300         82
   2.1400         58
   2.1500         50
   2.1600         62
   2.1700         88
   2.1800         72
   2.1900         58
   2.2000         36
   2.2100         48
   2.2200         57
   2.2300         72
   2.2400         55
   2.2500         37
   2.2600         48
   2.2700         62
   2.2800         52
   2.2900         46
   2.3000         38
   2.3100         23
   2.3200         44
   2.3300         40
   2.3400         38
   2.3500         46
   2.3600         31
   2.3700         37
   2.3800         52
   2.3900         49
   2.4000         31
   2.4100         27
   2.4200         23
   2.4300         38
   2.4400         44
   2.4500         30
   2.4600         32
   2.4700         31
   2.4800         23
   2.4900         33
   2.5000         22

File: rocking1_1120.uxd
; (content of file C:\Users\Bruker\Desktop\Praktikum\LindhauerRauter\rocking1_1120.raw)
_FILEVERSION = 2
_SAMPLE =
_+SAMPLE =
_SITE = Dortmund
_USER = "Metin Tolan"
_GONIOMETER_CODE = 21
_STAGE_CODE = 8
; Goniometer : D8 theta/theta, stage : XYZ Drive(s)
_SAMPLE_CHANGER_CODE = 0
_ATTACHMENTS_CODE = 0
_GONIOMETER_RADIUS = 300
_FIXED_DIVSLIT = 0.15
_FIXED_SAMPLESLIT = 1
_SOLLER_SLITS = 2
_FIXED_DETSLIT = 1
_MONOCHROMATOR = 0
; Incident beam monochromator : None
_THIN_FILM = N
_BETA_FILTER = N
_FIXED_ANTISLIT = 0.15
_ANALYZER_CODE = 0
; Received beam analyzer : None
_DATEMEASURED = "16-Feb-2017 11:15:23"
_WL_UNIT = A
_WL1 = 1.5406
_WL2 = 1.54439
_WL3 = 1.39222
_WLRATIO = 0.5
_ANODE = Cu

; Data for range 1
_DRIVE = THETA
_STEPTIME = 0.9999
_STEPSIZE = 0.025
_STEPMODE = C
_START = -1
_THETA = -1
_2THETA = 0
_KHI = 0
_PHI = 0
_X = 29
_Y = -5
_Z = -19.1655
_DETECTOR = 1
; Detector type : Scintillation counter
_HV = 743.4
_GAIN = 80
_LLD = 0.98
_ULD = 2.01
_DETECTORSLIT = out
_AUX1 = 0
_AUX2 = 0
_AUX3 = 0
_TIMESTARTED = 3
_TEMP_RATE = -1
_TEMP_DELAY = -1
_KV = 40
_MA = 40
_RANGE_WL = 1.5406
_3DPLANE = 0
_V4_COUNTERS_MASK = 1
_V4_DRIVES_MASK = 0
_V4_ENCODERS_MASK = 0
_2THETACOUNTS = 1
; THETA  Cnt1_D1
  -1.0000         28
  -0.9750         52
  -0.9500         94
  -0.9250        162
  -0.9000        300
  -0.8750        501
  -0.8500        775
  -0.8250       1018
  -0.8000       1313
  -0.7750       1586
  -0.7500       1875
  -0.7250       1948
  -0.7000       2257
  -0.6750       2684
  -0.6500       4815
  -0.6250      12920
  -0.6000      44178
  -0.5750      89900
  -0.5500     190591
  -0.5250     417450
  -0.5000     624544
  -0.4750    1010080
  -0.4500    1407730
  -0.4250    1975670
  -0.4000    2596720
  -0.3750    3672730
  -0.3500    4344870
  -0.3250    5353070
  -0.3000    6625320
  -0.2750    7729550
  -0.2500    8197640
  -0.2250    9265850
  -0.2000   10190000
  -0.1750   11978400
  -0.1500   12482500
  -0.1250   12650500
  -0.1000   13670700
  -0.0750   15579100
  -0.0500   15699100
  -0.0250   16371300
   0.0000   16851400
   0.0250   15903200
   0.0500   15255100
   0.0750   14618900
   0.1000   14510900
   0.1250   13070600
   0.1500   12578500
   0.1750   11150200
   0.2000   10322100
   0.2250    9769950
   0.2500    7849570
   0.2750    7345470
   0.3000    6601320
   0.3250    5425080
   0.3500    4668930
   0.3750    3972790
   0.4000    3372670
   0.4250    2508500
   0.4500    2100420
   0.4750    1524300
   0.5000    1028020
   0.5250     675444
   0.5500     434223
   0.5750     258344
   0.6000     151535
   0.6250      76719
   0.6500      30298
   0.6750      11013
   0.7000       4226
   0.7250       2753
   0.7500       2315
   0.7750       2132
   0.8000       1924
   0.8250       1769
   0.8500       1548
   0.8750       1281
   0.9000       1031
   0.9250        811
   0.9500        576
   0.9750        370
   1.0000        231